LabVIEW Measurement	
Writer_Version	2
Reader_Version	2
Separator	Tab
Decimal_Separator	.
Multi_Headings	Yes
X_Columns	No
Time_Pref	Relative
Operator	scien
Date	2025/08/24
Time	21:17:12.2950258255004882813
***End_of_Header***	
	
Channels	2		
Samples	100	100	
Date	1903/12/31	1903/12/31	
Time	19:00:00	19:00:00	
X_Dimension	Time	Time	
X0	0.0000000000000000E+0	0.0000000000000000E+0	
Delta_X	1.000000	1.000000	
***End_of_Header***			
X_Value	Untitled	Untitled 1	Comment
	20.000055	0.000817
	19.595926	0.000809
	19.192049	0.000796
	18.787888	0.000788
	18.383905	0.000782
	17.980021	0.000772
	17.575985	0.000764
	17.171621	0.000755
	16.767942	0.000745
	16.364111	0.000740
	15.959875	0.000728
	15.556273	0.000721
	15.152378	0.000713
	14.748363	0.000705
	14.344146	0.000694
	13.940495	0.000685
	13.536656	0.000678
	13.132710	0.000668
	12.728404	0.000660
	12.324304	0.000652
	11.919917	0.000641
	11.516084	0.000635
	11.112096	0.000623
	10.708015	0.000616
	10.303765	0.000607
	9.899733	0.000599
	9.495723	0.000591
	9.091754	0.000580
	8.687545	0.000573
	8.283542	0.000563
	7.879498	0.000556
	7.475629	0.000547
	7.070988	0.000538
	6.666997	0.000532
	6.262890	0.000522
	5.858755	0.000513
	5.454932	0.000504
	5.050982	0.000496
	4.647109	0.000489
	4.242849	0.000480
	3.839017	0.000473
	3.435048	0.000465
	3.031143	0.000455
	2.626898	0.000447
	2.222697	0.000439
	1.818308	0.000430
	1.414424	0.000421
	1.010294	0.000413
	0.606206	0.000406
	0.202023	0.000397
	-0.204280	0.000388
	-0.608203	0.000379
	-1.012359	0.000369
	-1.416384	0.000361
	-1.820650	0.000353
	-2.224464	0.000344
	-2.629094	0.000335
	-3.033145	0.000326
	-3.437024	0.000318
	-3.841322	0.000310
	-4.245175	0.000301
	-4.649103	0.000293
	-5.053261	0.000284
	-5.457150	0.000275
	-5.861084	0.000265
	-6.265062	0.000256
	-6.669283	0.000246
	-7.073197	0.000238
	-7.477109	0.000228
	-7.881717	0.000218
	-8.285692	0.000209
	-8.689932	0.000200
	-9.093894	0.000189
	-9.497834	0.000179
	-9.901941	0.000170
	-10.306204	0.000159
	-10.710224	0.000149
	-11.114103	0.000139
	-11.518446	0.000130
	-11.922306	0.000119
	-12.326199	0.000109
	-12.730638	9.872107E-5
	-13.134500	8.801831E-5
	-13.538808	7.811115E-5
	-13.942588	6.776541E-5
	-14.346378	5.767323E-5
	-14.750200	4.771425E-5
	-15.154318	3.811059E-5
	-15.558137	2.911130E-5
	-15.961910	2.113585E-5
	-16.366062	1.463603E-5
	-16.769672	9.850144E-6
	-17.173346	6.302525E-6
	-17.577919	3.984997E-6
	-17.981783	2.408601E-6
	-18.385677	1.347285E-6
	-18.789972	6.372821E-7
	-19.193823	1.447405E-7
	-19.597710	-1.577801E-7
	-20.001991	-3.742321E-7

