LabVIEW Measurement	
Writer_Version	2
Reader_Version	2
Separator	Tab
Decimal_Separator	.
Multi_Headings	Yes
X_Columns	No
Time_Pref	Relative
Operator	scien
Date	2025/08/24
Time	21:17:12.2950258255004882813
***End_of_Header***	
	
Channels	2		
Samples	100	100	
Date	1903/12/31	1903/12/31	
Time	19:00:00	19:00:00	
X_Dimension	Time	Time	
X0	0.0000000000000000E+0	0.0000000000000000E+0	
Delta_X	1.000000	1.000000	
***End_of_Header***			
X_Value	Untitled	Untitled 1	Comment
	10.003510	0.006444
	9.496725	0.006380
	8.993095	0.006315
	8.486692	0.006249
	7.983193	0.006183
	7.476820	0.006115
	6.973275	0.006047
	6.466759	0.005977
	5.963392	0.005908
	5.456753	0.005837
	4.953502	0.005765
	4.446774	0.005693
	3.943484	0.005620
	3.436723	0.005546
	2.929972	0.005471
	2.426622	0.005396
	1.919946	0.005319
	1.416780	0.005243
	0.909837	0.005164
	0.406580	0.005085
	-0.119707	0.005001
	-0.626075	0.004919
	-1.129336	0.004835
	-1.636019	0.004747
	-2.139361	0.004657
	-2.645955	0.004565
	-3.149489	0.004470
	-3.656030	0.004371
	-4.162745	0.004268
	-4.665995	0.004164
	-5.172937	0.004056
	-5.676241	0.003945
	-6.182492	0.003831
	-6.686203	0.003712
	-7.192677	0.003585
	-7.696098	0.003451
	-8.202851	0.003304
	-8.706003	0.003145
	-9.213003	0.002973
	-9.716167	0.002788
	-10.222962	0.002584
	-10.729715	0.002354
	-11.232978	0.002076
	-11.740096	0.001612
	-12.242527	0.001076
	-12.749201	0.000195
	-13.254590	-6.978745E-5
	-13.761504	-7.590522E-5
	-14.265174	-7.991149E-5
	-14.771597	-8.296945E-5
	-15.281562	-8.555844E-5
	-15.784828	-8.785758E-5
	-16.291628	-9.000044E-5
	-16.795250	-9.191049E-5
	-17.301817	-9.369088E-5
	-17.808380	-9.532365E-5
	-18.311516	-9.677821E-5
	-18.818243	-9.818053E-5
	-19.321672	-9.943741E-5
	-19.827934	-0.000101
	-20.331186	-0.000102
	-20.837889	-0.000103
	-21.341122	-0.000104
	-21.847858	-0.000105
	-22.348969	-0.000106
	-22.855453	-0.000107
	-23.358847	-0.000108
	-23.865459	-0.000108
	-24.368811	-0.000109
	-24.875364	-0.000110
	-25.382086	-0.000110
	-25.884970	-0.000111
	-26.391619	-0.000111
	-26.895342	-0.000112
	-27.402142	-0.000113
	-27.905146	-0.000113
	-28.411659	-0.000114
	-28.915108	-0.000114
	-29.421644	-0.000115
	-29.924721	-0.000115
	-30.431681	-0.000116
	-30.934593	-0.000116
	-31.441248	-0.000116
	-31.947855	-0.000117
	-32.450794	-0.000117
	-32.957695	-0.000117
	-33.460529	-0.000117
	-33.967308	-0.000118
	-34.470646	-0.000118
	-34.976971	-0.000118
	-35.480614	-0.000119
	-35.986774	-0.000119
	-36.490032	-0.000119
	-36.996601	-0.000119
	-37.500031	-0.000119
	-38.006645	-0.000119
	-38.509544	-0.000120
	-39.016308	-0.000120
	-39.522789	-0.000120
	-40.026016	-0.000120

