LabVIEW Measurement	
Writer_Version	2
Reader_Version	2
Separator	Tab
Decimal_Separator	.
Multi_Headings	Yes
X_Columns	No
Time_Pref	Relative
Operator	scien
Date	2025/08/24
Time	21:17:12.2950258255004882813
***End_of_Header***	
	
Channels	2		
Samples	100	100	
Date	1903/12/31	1903/12/31	
Time	19:00:00	19:00:00	
X_Dimension	Time	Time	
X0	0.0000000000000000E+0	0.0000000000000000E+0	
Delta_X	1.000000	1.000000	
***End_of_Header***			
X_Value	Untitled	Untitled 1	Comment
	10.010462	0.014868
	9.304047	0.014676
	8.594725	0.014614
	7.890027	0.014550
	7.178674	0.014481
	6.474395	0.014410
	5.770423	0.014334
	5.061423	0.014255
	4.350545	0.014519
	3.638476	0.014410
	2.933205	0.014334
	2.224703	0.014178
	1.518591	0.014072
	0.813470	0.014091
	0.103430	0.014003
	-0.626197	0.010562
	-1.334405	0.010803
	-2.039842	0.010737
	-2.745255	0.010606
	-3.457294	0.010451
	-4.162741	0.010272
	-4.871486	0.010085
	-5.576159	0.010021
	-6.284603	0.009753
	-6.990468	0.009538
	-7.695659	0.009327
	-8.407576	0.009126
	-9.113458	0.008927
	-9.821612	0.008740
	-10.527109	0.008561
	-11.232521	0.008387
	-11.944357	0.008207
	-12.646614	0.008038
	-13.358475	0.007867
	-14.063678	0.007698
	-14.772394	0.007532
	-15.477562	0.007366
	-16.182995	0.007199
	-16.894863	0.007037
	-17.600016	0.006870
	-18.308620	0.006711
	-19.013943	0.006550
	-19.719021	0.006396
	-20.427557	0.006241
	-21.132790	0.006085
	-21.844910	0.005933
	-22.549776	0.005784
	-23.255186	0.005636
	-23.963577	0.005489
	-24.668961	0.005341
	-25.381107	0.005192
	-26.086180	0.005039
	-26.794901	0.004894
	-27.500294	0.004747
	-28.205458	0.004597
	-28.914198	0.004447
	-29.619326	0.004290
	-30.331232	0.004125
	-31.036459	0.003958
	-31.741564	0.003790
	-32.450378	0.003625
	-33.155346	0.003452
	-33.863705	0.003262
	-34.569031	0.003045
	-35.280804	0.002785
	-35.986126	0.002474
	-36.691402	0.002034
	-37.398891	0.000947
	-38.104942	0.000229
	-38.816959	0.000132
	-39.522011	0.000110
	-40.226093	9.877647E-5
	-40.934906	8.782824E-5
	-41.640343	7.761495E-5
	-42.348854	6.816905E-5
	-43.054264	5.956042E-5
	-43.759209	5.179557E-5
	-44.471386	4.477888E-5
	-45.176540	3.850072E-5
	-45.884953	3.281319E-5
	-46.590370	2.762701E-5
	-47.301903	2.280737E-5
	-48.003738	1.841593E-5
	-48.709053	1.426941E-5
	-49.420811	1.025937E-5
	-50.125057	6.265870E-6
	-50.834297	2.161740E-6
	-51.540348	-2.152568E-6
	-52.246258	-6.775500E-6
	-52.956768	-1.193359E-5
	-53.662399	-1.731426E-5
	-54.371056	-2.290311E-5
	-55.076523	-2.827173E-5
	-55.785286	-3.305505E-5
	-56.490238	-3.675836E-5
	-57.195709	-3.907312E-5
	-57.907631	-4.033581E-5
	-58.612671	-4.107538E-5
	-59.321480	-4.167954E-5
	-60.026497	-4.230736E-5

