LabVIEW Measurement	
Writer_Version	2
Reader_Version	2
Separator	Tab
Decimal_Separator	.
Multi_Headings	Yes
X_Columns	No
Time_Pref	Relative
Operator	scien
Date	2025/08/24
Time	21:17:12.2950258255004882813
***End_of_Header***	
	
Channels	2		
Samples	100	100	
Date	1903/12/31	1903/12/31	
Time	19:00:00	19:00:00	
X_Dimension	Time	Time	
X0	0.0000000000000000E+0	0.0000000000000000E+0	
Delta_X	1.000000	1.000000	
***End_of_Header***			
X_Value	Untitled	Untitled 1	Comment
	10.003254	0.001894
	9.496378	0.001886
	8.993036	0.001871
	8.486357	0.001861
	7.982883	0.001842
	7.476509	0.001829
	6.973025	0.001816
	6.466429	0.001801
	5.963277	0.001784
	5.456417	0.001772
	4.953237	0.001758
	4.446404	0.001742
	3.943366	0.001729
	3.436641	0.001715
	2.929896	0.001700
	2.426480	0.001686
	1.919652	0.001674
	1.416485	0.001652
	0.909776	0.001637
	0.406549	0.001622
	-0.119859	0.001604
	-0.626359	0.001592
	-1.129590	0.001574
	-1.636214	0.001558
	-2.139453	0.001541
	-2.646259	0.001526
	-3.149666	0.001510
	-3.656537	0.001493
	-4.163101	0.001477
	-4.666471	0.001464
	-5.173193	0.001443
	-5.676571	0.001427
	-6.182621	0.001411
	-6.686438	0.001392
	-7.192704	0.001373
	-7.696408	0.001358
	-8.203104	0.001334
	-8.706237	0.001315
	-9.213264	0.001296
	-9.716405	0.001279
	-10.223167	0.001258
	-10.729946	0.001237
	-11.233202	0.001218
	-11.740178	0.001200
	-12.243185	0.001178
	-12.749896	0.001157
	-13.253095	0.001136
	-13.759898	0.001113
	-14.263394	0.001091
	-14.769704	0.001071
	-15.279600	0.001048
	-15.782959	0.001023
	-16.288689	0.001000
	-16.792358	0.000973
	-17.298746	0.000950
	-17.804972	0.000925
	-18.308441	0.000899
	-18.815226	0.000874
	-19.318523	0.000847
	-19.824793	0.000817
	-20.328148	0.000788
	-20.834480	0.000758
	-21.338329	0.000727
	-21.844952	0.000693
	-22.348040	0.000659
	-22.854626	0.000619
	-23.357670	0.000578
	-23.864466	0.000533
	-24.368071	0.000479
	-24.874496	0.000423
	-25.381451	0.000341
	-25.884920	0.000213
	-26.391420	0.000104
	-26.894070	8.075616E-5
	-27.400427	7.269777E-5
	-27.904072	6.710272E-5
	-28.410244	6.225722E-5
	-28.913954	5.799347E-5
	-29.420702	5.404153E-5
	-29.923798	5.016030E-5
	-30.430374	4.660985E-5
	-30.933842	4.336816E-5
	-31.440247	4.016285E-5
	-31.947199	3.712852E-5
	-32.450279	3.442944E-5
	-32.957039	3.171301E-5
	-33.459805	2.923748E-5
	-33.966423	2.683922E-5
	-34.469971	2.456040E-5
	-34.976360	2.246494E-5
	-35.479862	2.037008E-5
	-35.986320	1.835397E-5
	-36.489498	1.646581E-5
	-36.996189	1.458694E-5
	-37.499493	1.278847E-5
	-38.006153	1.103929E-5
	-38.507778	9.352640E-6
	-39.014973	7.703051E-6
	-39.521667	6.117961E-6
	-40.024940	4.648798E-6

